device_id,UTC_datetime,UTC_date,UTC_time,datatype,satcount,U_bat_mV,bat_soc_pct,solar_I_mA,hdop,Latitude,Longitude,Altitude_m,speed_km_h,direction_deg,temperature_C,mag_x,mag_y,mag_z,acc_x,acc_y,acc_z
373489,07/08/2025 12:31,07/08/2025,12:31:16,GPS,6,4174,100,1,1.9,56.584942,-6.639583,11,0,190,21,0,0,0,82,207,1041
373489,07/08/2025 12:41,07/08/2025,12:41:15,GPS,6,4177,100,1,1.9,56.584961,-6.639573,16,0,29,21,0,0,0,82,210,1040
373489,07/08/2025 12:51,07/08/2025,12:51:14,GPS,6,4177,100,4,1.8,56.584949,-6.639591,10,0,0,23,0,0,0,80,209,1045
373489,07/08/2025 13:01,07/08/2025,13:01:33,GPS,9,4183,100,4,1,56.584934,-6.639571,13,0,0,27,0,0,0,81,204,1047
373489,07/08/2025 13:11,07/08/2025,13:11:15,GPS,9,4186,100,3,1,56.584953,-6.639533,18,0,0,27,0,0,0,80,205,1040
373489,07/08/2025 13:21,07/08/2025,13:21:15,GPS,8,4188,100,1,1.1,56.584972,-6.639569,17,0,0,26,0,0,0,79,206,1046
373489,07/08/2025 13:31,07/08/2025,13:31:15,GPS,8,4186,100,1,1.1,56.584972,-6.639532,22,0,231,21,0,0,0,78,212,1044
373489,07/08/2025 13:41,07/08/2025,13:41:15,GPS,8,4183,100,1,1.1,56.58493,-6.639581,11,0,344,20,0,0,0,78,210,1045
373489,07/08/2025 13:51,07/08/2025,13:51:13,GPS,8,4183,100,1,1.1,56.584957,-6.639553,17,0,2,22,0,0,0,80,212,1034
373489,07/08/2025 14:01,07/08/2025,14:01:14,GPS,7,4186,100,1,1.1,56.584934,-6.639579,9,0,0,21,0,0,0,81,207,1039
373489,07/08/2025 14:11,07/08/2025,14:11:55,GPS,6,4180,100,0,1.3,56.584957,-6.639646,1,0,0,21,0,0,0,53,67,1067
373489,07/08/2025 14:21,07/08/2025,14:21:18,GPS,5,4174,100,0,1.4,56.585152,-6.638798,16,1,291,27,0,0,0,165,207,1579
373489,07/08/2025 14:31,07/08/2025,14:31:18,GPS,5,4174,100,0,1.3,56.58527,-6.638676,11,0,0,24,0,0,0,-27,-529,905
373489,07/08/2025 14:41,07/08/2025,14:41:16,GPS,5,4177,100,0,1.2,56.585289,-6.638625,11,0,0,29,0,0,0,-291,-114,1022
373489,07/08/2025 14:51,07/08/2025,14:51:19,GPS,5,4174,100,0,1.2,56.58532,-6.638703,17,0,0,22,0,0,0,-207,-141,1029
373489,07/08/2025 15:01,07/08/2025,15:01:18,GPS,5,4174,100,0,1.1,56.585396,-6.638784,20,2,145,24,0,0,0,-162,-227,1006
373489,07/08/2025 15:11,07/08/2025,15:11:20,GPS,4,4174,100,0,1.6,56.585369,-6.638747,4,2,324,23,0,0,0,-168,-161,1044
373489,07/08/2025 15:21,07/08/2025,15:21:17,GPS,4,4174,100,0,1.4,56.585327,-6.638591,0,1,119,23,0,0,0,-47,51,1041
373489,07/08/2025 15:31,07/08/2025,15:31:33,GPS,5,4174,100,0,1.8,56.585289,-6.638668,13,0,0,24,0,0,0,-228,-180,1022
373489,07/08/2025 15:41,07/08/2025,15:41:18,GPS,5,4171,100,0,2,56.585327,-6.638642,25,0,0,24,0,0,0,-209,-369,970
373489,07/08/2025 15:52,07/08/2025,15:52:03,GPS,7,4171,100,0,1.3,56.585243,-6.638585,13,0,0,25,0,0,0,45,-84,1117
373489,07/08/2025 16:01,07/08/2025,16:01:17,GPS,7,4169,100,1,1.3,56.585247,-6.638616,12,0,183,26,0,0,0,-222,-566,847
373489,07/08/2025 16:11,07/08/2025,16:11:51,GPS,7,4174,100,0,1,56.585285,-6.638614,14,0,0,28,0,0,0,-465,-257,1020
373489,07/08/2025 16:21,07/08/2025,16:21:18,GPS,7,4171,100,0,1,56.585262,-6.638598,11,0,352,24,0,0,0,-255,-164,1022
373489,07/08/2025 16:31,07/08/2025,16:31:18,GPS,7,4171,100,0,1,56.585274,-6.638613,15,0,345,22,0,0,0,-236,-176,1012
373489,07/08/2025 16:41,07/08/2025,16:41:19,GPS,7,4174,100,0,1.1,56.585274,-6.638592,10,0,0,23,0,0,0,336,-318,984
373489,07/08/2025 16:51,07/08/2025,16:51:21,GPS,7,4171,100,0,1.1,56.585239,-6.638648,9,0,0,20,0,0,0,-199,-332,975
373489,07/08/2025 17:01,07/08/2025,17:01:18,GPS,6,4171,100,0,1.4,56.585255,-6.638551,21,0,0,20,0,0,0,311,21,1085
373489,07/08/2025 17:11,07/08/2025,17:11:17,GPS,6,4169,100,0,1.4,56.585262,-6.63865,16,0,0,20,0,0,0,-150,-123,1024
373489,07/08/2025 17:21,07/08/2025,17:21:16,GPS,6,4169,100,0,1.5,56.585262,-6.638623,20,0,0,19,0,0,0,-212,-91,1047
373489,07/08/2025 17:31,07/08/2025,17:31:18,GPS,6,4169,100,0,1.5,56.585239,-6.638618,14,0,0,20,0,0,0,-236,-95,1024
373489,07/08/2025 17:41,07/08/2025,17:41:17,GPS,6,4166,100,0,1.6,56.585243,-6.638635,12,0,0,22,0,0,0,-235,-102,1023
373489,07/08/2025 17:51,07/08/2025,17:51:17,GPS,5,4166,100,0,1.9,56.585251,-6.638725,8,0,305,20,0,0,0,-222,-192,1008
373489,07/08/2025 18:01,07/08/2025,18:01:29,GPS,5,4166,100,0,2,56.585274,-6.638691,22,0,0,18,0,0,0,-186,-311,998
373489,07/08/2025 18:11,07/08/2025,18:11:51,GPS,8,4163,100,0,1.1,56.585247,-6.63872,13,0,0,20,0,0,0,-183,-182,1018
373489,07/08/2025 18:21,07/08/2025,18:21:19,GPS,8,4157,100,0,1.1,56.585266,-6.638737,21,0,205,19,0,0,0,-201,-105,1030
373489,07/08/2025 18:31,07/08/2025,18:31:18,GPS,8,4160,100,0,1.1,56.585239,-6.638752,11,0,0,18,0,0,0,-71,-307,1010
373489,07/08/2025 18:41,07/08/2025,18:41:20,GPS,8,4157,100,0,1.1,56.585239,-6.638717,9,0,0,19,0,0,0,-177,-204,1023
373489,07/08/2025 18:51,07/08/2025,18:51:17,GPS,7,4157,100,0,1.8,56.585251,-6.638716,13,0,0,19,0,0,0,-115,-98,1047
373489,07/08/2025 19:01,07/08/2025,19:01:16,GPS,6,4157,100,0,1.8,56.585289,-6.638701,28,0,0,19,0,0,0,-163,-63,1062
373489,07/08/2025 19:11,07/08/2025,19:11:17,GPS,6,4154,100,0,1.6,56.585243,-6.638736,16,0,348,18,0,0,0,-150,-149,1018
373489,07/08/2025 19:21,07/08/2025,19:21:18,GPS,6,4154,100,0,1.4,56.585209,-6.638709,8,0,173,18,0,0,0,-180,-111,1032
373489,07/08/2025 19:31,07/08/2025,19:31:15,GPS,6,4151,100,0,1.3,56.585217,-6.638704,11,0,347,17,0,0,0,-220,-318,965
373489,07/08/2025 19:41,07/08/2025,19:41:16,GPS,6,4151,100,0,1.3,56.585266,-6.638764,11,0,0,18,0,0,0,-222,-162,1010
373489,07/08/2025 19:51,07/08/2025,19:51:16,GPS,6,4151,100,0,1.2,56.585262,-6.638791,16,0,147,18,0,0,0,-292,-135,999
373489,07/08/2025 20:01,07/08/2025,20:01:18,GPS,6,4146,99,0,1.2,56.585281,-6.638823,19,0,331,18,0,0,0,-288,-180,1010
373489,07/08/2025 20:11,07/08/2025,20:11:17,GPS,6,4146,99,0,1.2,56.585224,-6.638701,16,0,189,19,0,0,0,-303,-87,1017
373489,07/08/2025 20:21,07/08/2025,20:21:16,GPS,5,4146,99,0,1.3,56.585262,-6.638784,17,1,346,18,0,0,0,-265,-153,1014
373489,07/08/2025 20:31,07/08/2025,20:31:17,GPS,4,4143,99,0,1.6,56.585262,-6.638721,14,0,0,18,0,0,0,-206,-59,1040
373489,07/08/2025 20:41,07/08/2025,20:41:17,GPS,4,4143,99,0,1.6,56.585228,-6.638764,11,1,21,17,0,0,0,-186,-117,1030
373489,07/08/2025 20:51,07/08/2025,20:51:21,GPS,4,4140,98,0,1.6,56.58522,-6.638712,19,0,0,16,0,0,0,-123,-139,1057
373489,07/08/2025 21:01,07/08/2025,21:01:15,GPS,4,4140,98,0,1.7,56.58522,-6.6387,13,6,340,18,0,0,0,-188,-195,1020
373489,07/08/2025 21:11,07/08/2025,21:11:32,GPS,6,4140,98,0,1,56.585262,-6.638731,15,0,0,16,0,0,0,-50,157,1044
373489,07/08/2025 21:21,07/08/2025,21:21:17,GPS,5,4137,98,0,1.5,56.585251,-6.638734,20,0,0,16,0,0,0,-185,-262,1002
373489,07/08/2025 21:31,07/08/2025,21:31:15,GPS,5,4137,98,0,1.4,56.585297,-6.638707,27,0,172,16,0,0,0,-234,-290,976
373489,07/08/2025 21:41,07/08/2025,21:41:16,GPS,5,4137,98,0,1.4,56.585236,-6.638739,9,0,185,16,0,0,0,-54,-15,1071
373489,07/08/2025 21:51,07/08/2025,21:51:33,GPS,6,4134,97,0,2,56.585316,-6.638707,15,0,0,17,0,0,0,-185,-120,1034
373489,07/08/2025 22:01,07/08/2025,22:01:33,GPS,7,4132,97,0,1.1,56.585255,-6.638728,15,0,0,18,0,0,0,-287,-33,1014
373489,07/08/2025 22:11,07/08/2025,22:11:16,GPS,6,4129,97,0,1.4,56.585293,-6.638709,12,0,7,18,0,0,0,-298,-32,1004
373489,07/08/2025 22:21,07/08/2025,22:21:15,GPS,6,4129,97,0,1.4,56.585262,-6.638741,17,0,0,18,0,0,0,-155,-13,1052
373489,07/08/2025 22:31,07/08/2025,22:31:15,GPS,6,4129,97,0,1.3,56.585255,-6.638781,16,0,0,18,0,0,0,-240,-109,1026
373489,07/08/2025 22:41,07/08/2025,22:41:16,GPS,6,4129,97,0,1.2,56.585255,-6.638695,20,0,0,17,0,0,0,-229,-132,1020
373489,07/08/2025 22:51,07/08/2025,22:51:33,GPS,8,4129,97,0,1,56.585239,-6.638715,16,0,339,18,0,0,0,-295,-321,984
373489,07/08/2025 23:01,07/08/2025,23:01:15,GPS,8,4126,96,0,1,56.585266,-6.638728,15,0,294,17,0,0,0,-262,-190,1016
373489,07/08/2025 23:11,07/08/2025,23:11:14,GPS,6,4126,96,0,1.4,56.585262,-6.638756,25,0,0,16,0,0,0,-204,-253,1014
373489,07/08/2025 23:21,07/08/2025,23:21:16,GPS,7,4123,96,0,1.2,56.585266,-6.63876,13,0,0,16,0,0,0,-165,-259,1020
373489,07/08/2025 23:31,07/08/2025,23:31:16,GPS,5,4123,96,0,1.6,56.585266,-6.638736,23,0,267,16,0,0,0,-250,-195,982
373489,07/08/2025 23:41,07/08/2025,23:41:17,GPS,7,4123,96,0,1.1,56.585255,-6.638737,11,0,0,17,0,0,0,-255,-216,1020
373489,07/08/2025 23:51,07/08/2025,23:51:18,GPS,7,4120,95,0,1.1,56.585247,-6.638708,15,0,0,16,0,0,0,-89,-324,987
373489,08/08/2025 00:01,08/08/2025,00:01:15,GPS,6,4120,95,0,1.4,56.585262,-6.638739,16,0,0,16,0,0,0,-131,-53,1062
373489,08/08/2025 00:11,08/08/2025,00:11:15,GPS,6,4120,95,0,1.6,56.585251,-6.63872,18,0,176,17,0,0,0,-112,-51,1046
373489,08/08/2025 00:21,08/08/2025,00:21:17,GPS,6,4120,95,0,1.8,56.585297,-6.638723,10,0,0,17,0,0,0,-138,-102,1044
373489,08/08/2025 00:31,08/08/2025,00:31:16,GPS,6,4120,95,0,2,56.585274,-6.638781,9,0,0,17,0,0,0,-125,-32,1044
373489,08/08/2025 00:41,08/08/2025,00:41:47,GPS,8,4117,95,0,1.3,56.585255,-6.638722,15,0,0,17,0,0,0,-229,-126,1029
373489,08/08/2025 00:51,08/08/2025,00:51:13,GPS,7,4115,94,0,1.3,56.58527,-6.63876,18,0,0,17,0,0,0,-174,-128,1034
373489,08/08/2025 01:01,08/08/2025,01:01:15,GPS,8,4115,94,0,1.2,56.585258,-6.638732,11,0,85,17,0,0,0,-207,-156,1020
373489,08/08/2025 01:11,08/08/2025,01:11:15,GPS,7,4115,94,0,1.1,56.585258,-6.638717,16,0,0,18,0,0,0,-183,-131,1024
373489,08/08/2025 01:21,08/08/2025,01:21:15,GPS,8,4115,94,0,1,56.585255,-6.638747,16,0,0,18,0,0,0,-198,-174,1041
373489,08/08/2025 01:31,08/08/2025,01:31:15,GPS,8,4115,94,0,1,56.585258,-6.638736,20,0,311,17,0,0,0,-175,-153,1022
373489,08/08/2025 01:41,08/08/2025,01:41:13,GPS,7,4112,94,0,1,56.585236,-6.638732,13,0,276,18,0,0,0,-195,-208,1044
373489,08/08/2025 01:51,08/08/2025,01:51:17,GPS,7,4112,94,0,1,56.585297,-6.638824,14,0,34,18,0,0,0,-141,-102,1046
373489,08/08/2025 02:01,08/08/2025,02:01:16,GPS,6,4112,94,0,1,56.585239,-6.638719,19,0,119,18,0,0,0,-158,-190,1032
373489,08/08/2025 02:11,08/08/2025,02:11:14,GPS,5,4112,94,0,1.2,56.58522,-6.638677,17,0,0,17,0,0,0,-100,-141,1036
373489,08/08/2025 02:21,08/08/2025,02:21:17,GPS,5,4109,93,0,1.1,56.585243,-6.638713,21,0,145,17,0,0,0,-142,-161,1029
373489,08/08/2025 02:31,08/08/2025,02:31:21,GPS,4,4109,93,0,1.6,56.585255,-6.638731,17,0,0,17,0,0,0,-181,-180,1017
373489,08/08/2025 02:41,08/08/2025,02:41:22,GPS,4,4109,93,0,1.6,56.585243,-6.638741,20,2,309,17,0,0,0,-120,-55,1044
373489,08/08/2025 02:51,08/08/2025,02:51:22,GPS,4,4106,93,0,1.6,56.585278,-6.638736,22,4,24,16,0,0,0,-96,-230,1022
373489,08/08/2025 03:02,08/08/2025,03:02:03,GPS,6,4106,93,0,1.8,56.585243,-6.638721,13,0,0,16,0,0,0,-45,-249,1004
373489,08/08/2025 03:11,08/08/2025,03:11:26,GPS,6,4098,91,0,1.7,56.585289,-6.63875,14,0,0,16,0,0,0,-136,-497,911
373489,08/08/2025 03:21,08/08/2025,03:21:26,GPS,6,4098,91,0,1.6,56.5853,-6.638754,17,0,0,15,0,0,0,-165,-395,958
373489,08/08/2025 03:31,08/08/2025,03:31:26,GPS,6,4098,91,0,1.6,56.585255,-6.638756,13,0,0,15,0,0,0,-179,-368,975
373489,08/08/2025 03:41,08/08/2025,03:41:21,GPS,5,4095,91,0,1.9,56.585281,-6.638728,7,0,0,15,0,0,0,-220,-507,933
373489,08/08/2025 03:51,08/08/2025,03:51:57,GPS,6,4095,91,0,1.6,56.585274,-6.638759,11,0,0,16,0,0,0,-157,-390,958
373489,08/08/2025 04:01,08/08/2025,04:01:20,GPS,6,4089,90,0,1.5,56.585251,-6.638782,18,0,0,15,0,0,0,-198,-369,963
373489,08/08/2025 04:11,08/08/2025,04:11:16,GPS,6,4089,90,0,1.5,56.585258,-6.638743,15,0,0,15,0,0,0,-242,-474,909
373489,08/08/2025 04:21,08/08/2025,04:21:17,GPS,6,4089,90,0,1.6,56.58527,-6.638762,11,0,0,16,0,0,0,-143,-374,983
373489,08/08/2025 04:31,08/08/2025,04:31:17,GPS,5,4089,90,0,2,56.585297,-6.638783,8,0,0,16,0,0,0,-242,-431,927
373489,08/08/2025 04:41,08/08/2025,04:41:19,GPS,6,4089,90,0,1.9,56.585255,-6.638776,14,0,0,18,0,0,0,-185,81,1028
373489,08/08/2025 04:51,08/08/2025,04:51:33,GPS,7,4086,89,0,1.6,56.585354,-6.638684,17,1,105,15,0,0,0,581,-410,961
373489,08/08/2025 05:01,08/08/2025,05:01:17,GPS,6,4083,89,0,1.7,56.585396,-6.638433,18,0,0,15,0,0,0,-147,-519,900
373489,08/08/2025 05:11,08/08/2025,05:11:17,GPS,5,4083,89,0,1.8,56.585442,-6.638491,18,0,0,16,0,0,0,-170,-628,791
373489,08/08/2025 05:21,08/08/2025,05:21:19,GPS,5,4083,89,0,1.9,56.585331,-6.638361,22,0,0,15,0,0,0,-75,-291,1097
373489,08/08/2025 05:31,08/08/2025,05:31:15,GPS,5,4080,88,0,2,56.585411,-6.638516,12,0,0,15,0,0,0,-159,-25,1046
373489,08/08/2025 05:41,08/08/2025,05:41:33,GPS,6,4083,89,0,1.5,56.5854,-6.638494,15,0,18,16,0,0,0,-138,-249,1005
373489,08/08/2025 05:51,08/08/2025,05:51:16,GPS,6,4080,88,0,1.5,56.585434,-6.638531,11,0,0,17,0,0,0,-165,-238,1014
373489,08/08/2025 06:01,08/08/2025,06:01:22,GPS,4,4080,88,0,1.6,56.585392,-6.63846,28,3,0,17,0,0,0,-144,-252,1006
373489,08/08/2025 06:11,08/08/2025,06:11:19,GPS,4,4078,88,0,1.6,56.585369,-6.638597,21,0,0,18,0,0,0,-147,-358,969
373489,08/08/2025 06:21,08/08/2025,06:21:18,GPS,4,4078,88,0,1.6,56.585361,-6.638474,20,0,0,18,0,0,0,-122,-99,1047
373489,08/08/2025 06:32,08/08/2025,06:32:30,GPS,5,4078,88,0,1.5,56.585346,-6.638463,16,0,147,19,0,0,0,-189,-105,1022
373489,08/08/2025 06:42,08/08/2025,06:42:03,GPS,6,4069,87,0,1.5,56.585331,-6.638474,16,0,246,19,0,0,0,-171,-251,1002
373489,08/08/2025 06:51,08/08/2025,06:51:18,GPS,6,4066,86,0,1.4,56.585323,-6.638453,22,0,131,18,0,0,0,-307,-393,927
373489,08/08/2025 07:01,08/08/2025,07:01:19,GPS,6,4069,87,0,1.4,56.585323,-6.638479,15,0,330,18,0,0,0,-201,-419,939
373489,08/08/2025 07:11,08/08/2025,07:11:18,GPS,5,4069,87,0,1.6,56.585358,-6.638532,16,0,0,18,0,0,0,-154,-346,965
373489,08/08/2025 07:21,08/08/2025,07:21:16,GPS,5,4069,87,0,1.6,56.585342,-6.638489,14,0,0,19,0,0,0,-193,-498,919
373489,08/08/2025 07:31,08/08/2025,07:31:18,GPS,5,4069,87,0,1.7,56.585365,-6.63856,-2,1,0,19,0,0,0,-185,-504,921
373489,08/08/2025 07:41,08/08/2025,07:41:20,GPS,5,4069,87,0,1.9,56.585339,-6.638458,14,0,201,17,0,0,0,-75,366,988
373489,08/08/2025 07:51,08/08/2025,07:51:23,GPS,5,4066,86,0,2,56.5853,-6.638427,4,1,0,17,0,0,0,395,-745,510
373489,08/08/2025 08:01,08/08/2025,08:01:57,GPS,6,4061,85,0,1.9,56.585308,-6.638377,15,0,0,18,0,0,0,-249,-300,1008
373489,08/08/2025 08:11,08/08/2025,08:11:51,GPS,7,4058,85,0,1.1,56.585285,-6.638371,16,0,102,18,0,0,0,-207,63,1047
373489,08/08/2025 08:21,08/08/2025,08:21:16,GPS,7,4058,85,0,1.1,56.585285,-6.638343,14,0,0,18,0,0,0,-73,-4,1060
373489,08/08/2025 08:31,08/08/2025,08:31:16,GPS,7,4061,85,0,1,56.5853,-6.63833,17,0,0,18,0,0,0,-198,-24,1059
373489,08/08/2025 08:41,08/08/2025,08:41:16,GPS,6,4061,85,0,1.2,56.585297,-6.638341,16,0,157,17,0,0,0,-150,-12,1058
373489,08/08/2025 08:51,08/08/2025,08:51:21,GPS,6,4061,85,0,1.1,56.585346,-6.638329,6,0,0,18,0,0,0,-62,-91,1064
373489,08/08/2025 09:01,08/08/2025,09:01:16,GPS,6,4058,85,0,1.1,56.585243,-6.638428,17,0,0,17,0,0,0,-117,278,1020
373489,08/08/2025 09:11,08/08/2025,09:11:19,GPS,5,4058,85,0,1.6,56.585255,-6.638459,11,0,0,18,0,0,0,-238,-110,1036
373489,08/08/2025 09:21,08/08/2025,09:21:21,GPS,5,4058,85,0,1.5,56.585106,-6.638501,26,1,194,18,0,0,0,-174,-285,1018
373489,08/08/2025 09:31,08/08/2025,09:31:19,GPS,5,4058,85,0,1.4,56.585247,-6.638414,18,0,0,19,0,0,0,-168,-134,1035
373489,08/08/2025 09:41,08/08/2025,09:41:19,GPS,5,4058,85,0,1.3,56.585209,-6.638442,13,0,0,19,0,0,0,-177,-164,1020
373489,08/08/2025 09:51,08/08/2025,09:51:18,GPS,5,4055,84,0,1.3,56.585251,-6.638444,18,1,254,19,0,0,0,-198,-146,1032
373489,08/08/2025 10:02,08/08/2025,10:02:33,GPS,6,4055,84,0,1.1,56.585247,-6.638416,18,0,0,19,0,0,0,-152,-36,1056
373489,08/08/2025 10:11,08/08/2025,10:11:17,GPS,6,4044,82,0,1.1,56.585236,-6.638348,19,0,77,19,0,0,0,-207,114,1050
373489,08/08/2025 10:21,08/08/2025,10:21:19,GPS,6,4046,83,0,1.1,56.585224,-6.63833,23,0,0,19,0,0,0,-127,-15,954
373489,08/08/2025 10:31,08/08/2025,10:31:51,GPS,8,4046,83,0,1.1,56.585258,-6.638353,19,0,246,21,0,0,0,-120,22,1089
373489,08/08/2025 10:41,08/08/2025,10:41:18,GPS,7,4038,81,0,1.3,56.585247,-6.638418,29,0,0,19,0,0,0,-105,66,1038
373489,08/08/2025 10:51,08/08/2025,10:51:19,GPS,6,4038,81,0,1.7,56.585243,-6.638424,13,0,0,19,0,0,0,-132,106,1057
373489,08/08/2025 11:01,08/08/2025,11:01:30,GPS,6,4038,81,0,1.6,56.585258,-6.63845,22,0,267,18,0,0,0,-174,126,1056
373489,08/08/2025 11:11,08/08/2025,11:11:16,GPS,7,4035,81,0,1.4,56.585224,-6.638393,16,0,122,18,0,0,0,-163,14,1038
373489,08/08/2025 11:21,08/08/2025,11:21:24,GPS,6,4035,81,0,1.6,56.585251,-6.638426,17,0,181,19,0,0,0,-16,-492,867
373489,08/08/2025 11:31,08/08/2025,11:31:22,GPS,6,4032,80,0,1.7,56.585228,-6.638439,16,0,0,18,0,0,0,-199,-230,1010
373489,08/08/2025 11:41,08/08/2025,11:41:17,GPS,7,4032,80,0,1.4,56.585144,-6.638363,8,0,0,19,0,0,0,-187,-110,1032
373489,08/08/2025 11:51,08/08/2025,11:51:16,GPS,7,4029,80,0,1.3,56.585297,-6.638517,14,0,317,19,0,0,0,-247,-37,1032
373489,08/08/2025 12:01,08/08/2025,12:01:16,GPS,6,4029,80,0,1.6,56.585224,-6.638474,16,0,0,19,0,0,0,21,-347,905
373489,08/08/2025 12:11,08/08/2025,12:11:18,GPS,6,4029,80,0,1.5,56.585197,-6.638375,20,0,341,19,0,0,0,-376,-438,866
373489,08/08/2025 12:21,08/08/2025,12:21:19,GPS,6,4029,80,0,1.4,56.585087,-6.638304,15,4,139,19,0,0,0,-138,199,1034
373489,08/08/2025 12:31,08/08/2025,12:31:18,GPS,5,4029,80,0,1.4,56.585167,-6.638354,20,0,333,20,0,0,0,-84,-97,1042
373489,08/08/2025 12:41,08/08/2025,12:41:16,GPS,5,4027,80,0,1.4,56.585178,-6.638401,31,0,329,19,0,0,0,87,91,634
373489,08/08/2025 12:51,08/08/2025,12:51:31,GPS,5,4027,80,0,1.3,56.585224,-6.6384,26,0,144,20,0,0,0,-105,21,1050
373489,08/08/2025 13:01,08/08/2025,13:01:51,GPS,5,4024,79,0,1.7,56.585159,-6.638303,16,0,0,21,0,0,0,20,459,939
373489,08/08/2025 13:11,08/08/2025,13:11:18,GPS,4,4015,78,0,1.9,56.585144,-6.638269,16,0,110,20,0,0,0,-204,-25,1035
373489,08/08/2025 13:21,08/08/2025,13:21:17,GPS,4,4018,78,0,1.9,56.585152,-6.638474,8,0,0,21,0,0,0,-174,-204,1023
373489,08/08/2025 13:31,08/08/2025,13:31:18,GPS,4,4018,78,0,1.9,56.58511,-6.638379,17,0,0,20,0,0,0,-123,-331,1005
373489,08/08/2025 13:41,08/08/2025,13:41:18,GPS,4,4015,78,0,2,56.585167,-6.638313,18,0,0,19,0,0,0,-189,141,1022
373489,08/08/2025 13:51,08/08/2025,13:51:33,GPS,5,4015,78,0,1.8,56.585155,-6.638338,18,0,0,20,0,0,0,-237,-117,1030
373489,08/08/2025 14:01,08/08/2025,14:01:16,GPS,5,4015,78,0,1.9,56.585194,-6.638296,36,0,0,24,0,0,0,-143,-79,1046
373489,08/08/2025 14:11,08/08/2025,14:11:17,GPS,5,4018,78,0,2,56.585159,-6.638248,28,0,0,23,0,0,0,-134,-362,959
373489,08/08/2025 14:22,08/08/2025,14:22:03,GPS,7,4018,78,0,1.1,56.585186,-6.638164,18,0,0,20,0,0,0,-175,419,936
373489,08/08/2025 14:31,08/08/2025,14:31:16,GPS,5,4009,77,0,1.6,56.585186,-6.638175,19,0,0,22,0,0,0,61,-157,1048
373489,08/08/2025 14:41,08/08/2025,14:41:17,GPS,6,4012,77,0,1.3,56.585148,-6.638136,25,0,0,22,0,0,0,-161,-80,1036
373489,08/08/2025 14:51,08/08/2025,14:51:16,GPS,6,4012,77,0,1.3,56.585152,-6.638199,12,0,0,22,0,0,0,-183,-125,1032
373489,08/08/2025 15:01,08/08/2025,15:01:15,GPS,6,4009,77,0,1.4,56.585136,-6.638113,23,0,210,22,0,0,0,-213,-177,1024
373489,08/08/2025 15:11,08/08/2025,15:11:15,GPS,6,4012,77,0,1.4,56.585133,-6.638139,16,0,0,24,0,0,0,-232,-45,1035
373489,08/08/2025 15:21,08/08/2025,15:21:16,GPS,6,4015,78,0,1.5,56.585152,-6.638251,14,0,0,22,0,0,0,-174,-405,958
373489,08/08/2025 15:31,08/08/2025,15:31:17,GPS,6,4012,77,0,1.6,56.585136,-6.638243,19,0,0,22,0,0,0,-191,-322,973
373489,08/08/2025 15:41,08/08/2025,15:41:18,GPS,5,4012,77,0,2,56.58514,-6.638234,15,0,0,22,0,0,0,-161,-354,972
373489,08/08/2025 15:51,08/08/2025,15:51:16,GPS,6,4015,78,0,1.8,56.585117,-6.638278,15,0,0,24,0,0,0,-272,209,1075
373489,08/08/2025 16:01,08/08/2025,16:01:33,GPS,8,4015,78,0,1.3,56.585098,-6.638272,14,0,0,23,0,0,0,-180,-62,1058
373489,08/08/2025 16:11,08/08/2025,16:11:16,GPS,7,4012,77,0,1.7,56.585072,-6.638301,12,0,341,23,0,0,0,-36,60,1062
373489,08/08/2025 16:21,08/08/2025,16:21:15,GPS,7,4012,77,0,1.5,56.585075,-6.638288,10,0,0,23,0,0,0,-73,93,1052
373489,08/08/2025 16:31,08/08/2025,16:31:15,GPS,6,4012,77,0,1.9,56.585083,-6.638243,14,0,0,22,0,0,0,-109,52,1053
373489,08/08/2025 16:41,08/08/2025,16:41:15,GPS,7,4009,77,0,1.3,56.585114,-6.638291,14,0,325,22,0,0,0,-186,-90,1036
373489,08/08/2025 16:51,08/08/2025,16:51:16,GPS,7,4009,77,0,1.2,56.585102,-6.638216,13,0,0,23,0,0,0,-274,-216,995
373489,08/08/2025 17:01,08/08/2025,17:01:15,GPS,6,4009,77,0,1.3,56.585075,-6.638252,16,0,0,23,0,0,0,-171,107,1035
373489,08/08/2025 17:11,08/08/2025,17:11:16,GPS,5,4009,77,0,1.9,56.585079,-6.638272,16,0,0,22,0,0,0,-174,-44,1052
373489,08/08/2025 17:21,08/08/2025,17:21:14,GPS,6,4007,76,0,1.6,56.585098,-6.638288,14,0,0,22,0,0,0,-148,76,1040
373489,08/08/2025 17:31,08/08/2025,17:31:15,GPS,6,4007,76,0,1.7,56.585094,-6.638296,11,0,0,21,0,0,0,384,-297,1172
373489,08/08/2025 17:41,08/08/2025,17:41:51,GPS,8,4007,76,0,1,56.585117,-6.638302,12,0,48,22,0,0,0,-176,-82,1040
373489,08/08/2025 18:01,08/08/2025,18:01:17,GPS,7,4001,75,0,1.1,56.585117,-6.638325,12,0,0,21,0,0,0,-171,-51,1044
373489,08/08/2025 18:21,08/08/2025,18:21:16,GPS,7,4001,75,0,1.2,56.585121,-6.638278,9,0,0,20,0,0,0,-266,-152,1018
373489,08/08/2025 18:41,08/08/2025,18:41:18,GPS,7,4001,75,0,1.2,56.585091,-6.638275,13,0,166,20,0,0,0,-235,-141,1023
373489,08/08/2025 19:01,08/08/2025,19:01:20,GPS,5,3998,75,0,1.8,56.58511,-6.638311,14,0,0,20,0,0,0,-157,-33,1048
373489,08/08/2025 19:11,08/08/2025,19:11:15,GPS,5,3998,75,0,1.5,56.585087,-6.638268,11,0,0,20,0,0,0,-134,-99,1038
373489,08/08/2025 19:31,08/08/2025,19:31:17,GPS,5,3998,75,0,1.3,56.585102,-6.638232,16,0,0,18,0,0,0,-224,-95,1026
373489,08/08/2025 19:51,08/08/2025,19:51:19,GPS,5,3995,74,0,1.3,56.585159,-6.638281,46,0,330,19,0,0,0,-235,-136,1026
373489,08/08/2025 20:11,08/08/2025,20:11:51,GPS,11,3987,73,0,0.8,56.585125,-6.638288,14,0,0,19,0,0,0,-9,-29,963
373489,08/08/2025 20:31,08/08/2025,20:31:15,GPS,10,3984,72,0,0.8,56.585125,-6.638302,14,0,230,17,0,0,0,-201,-267,1005
373489,08/08/2025 20:51,08/08/2025,20:51:15,GPS,11,3984,72,0,0.7,56.585129,-6.638291,15,0,165,16,0,0,0,-219,-315,965
373489,08/08/2025 21:11,08/08/2025,21:11:13,GPS,6,3984,72,0,1.7,56.585121,-6.638257,15,0,0,17,0,0,0,-220,-215,999
373489,08/08/2025 21:31,08/08/2025,21:31:15,GPS,7,3984,72,0,1,56.585121,-6.638296,18,0,333,17,0,0,0,-228,-204,990
373489,08/08/2025 21:51,08/08/2025,21:51:16,GPS,5,3984,72,0,1.4,56.584213,-6.637339,9,0,0,16,0,0,0,-204,-214,1018
373489,08/08/2025 22:11,08/08/2025,22:11:16,GPS,4,3981,72,0,1.7,56.584061,-6.638551,17,0,8,16,0,0,0,-182,-78,1020
373489,08/08/2025 22:31,08/08/2025,22:31:16,GPS,4,3981,72,0,1.5,56.583961,-6.638581,11,0,0,17,0,0,0,-138,-117,1044
373489,08/08/2025 22:51,08/08/2025,22:51:33,GPS,7,3981,72,0,1,56.5839,-6.638494,15,0,0,17,0,0,0,-146,-125,1041
373489,08/08/2025 23:11,08/08/2025,23:11:15,GPS,7,3978,71,0,1,56.583904,-6.638532,25,0,70,15,0,0,0,-159,-57,1030
373489,08/08/2025 23:31,08/08/2025,23:31:14,GPS,6,3978,71,0,1.2,56.583908,-6.63849,17,0,186,15,0,0,0,-66,53,1053
373489,08/08/2025 23:51,08/08/2025,23:51:16,GPS,6,3975,71,0,1.1,56.5839,-6.638497,20,0,0,16,0,0,0,-143,-116,1047
373489,09/08/2025 00:11,09/08/2025,00:11:47,GPS,10,3978,71,0,1.2,56.583893,-6.638483,15,0,0,17,0,0,0,-173,-156,1026
373489,09/08/2025 00:31,09/08/2025,00:31:14,GPS,10,3973,71,0,1.3,56.583893,-6.638492,18,0,212,15,0,0,0,-125,-181,1026
373489,09/08/2025 00:51,09/08/2025,00:51:15,GPS,9,3973,71,0,1.2,56.583889,-6.63848,6,0,0,15,0,0,0,-129,-130,1038
373489,09/08/2025 01:11,09/08/2025,01:11:15,GPS,9,3973,71,0,1,56.583874,-6.638473,13,0,0,15,0,0,0,-210,-270,999
373489,09/08/2025 01:31,09/08/2025,01:31:15,GPS,9,3973,71,0,0.9,56.583878,-6.638475,10,0,0,14,0,0,0,-255,-507,864
373489,09/08/2025 01:51,09/08/2025,01:51:14,GPS,8,3970,70,0,1,56.583897,-6.638495,16,0,145,14,0,0,0,-273,-299,970
373489,09/08/2025 02:11,09/08/2025,02:11:14,GPS,7,3970,70,0,1.5,56.583908,-6.638507,26,0,0,14,0,0,0,-183,-288,1026
373489,09/08/2025 02:31,09/08/2025,02:31:15,GPS,7,3970,70,0,1.4,56.583923,-6.638499,13,0,334,13,0,0,0,-219,-282,986
373489,09/08/2025 02:51,09/08/2025,02:51:19,GPS,5,3970,70,0,1.6,56.58403,-6.638745,1,0,0,15,0,0,0,-284,-185,1018
373489,09/08/2025 03:11,09/08/2025,03:11:32,GPS,7,3970,70,0,0.8,56.58387,-6.638482,12,0,0,15,0,0,0,-231,-195,998
373489,09/08/2025 03:31,09/08/2025,03:31:16,GPS,6,3967,70,0,0.9,56.583889,-6.638449,17,0,45,13,0,0,0,-205,-285,984
373489,09/08/2025 03:51,09/08/2025,03:51:47,GPS,10,3967,70,0,1,56.583881,-6.63848,13,0,208,14,0,0,0,-213,-480,921
373489,09/08/2025 04:11,09/08/2025,04:11:14,GPS,9,3961,69,0,1,56.584106,-6.638899,7,0,0,12,0,0,0,-146,291,958
373489,09/08/2025 04:31,09/08/2025,04:31:15,GPS,9,3964,69,0,1,56.584396,-6.639012,16,0,0,13,0,0,0,-224,-315,999
373489,09/08/2025 04:51,09/08/2025,04:51:17,GPS,9,3964,69,0,0.9,56.584465,-6.639025,11,0,0,15,0,0,0,-185,-275,988
373489,09/08/2025 05:11,09/08/2025,05:11:17,GPS,7,3964,69,0,1,56.584461,-6.639009,10,0,0,15,0,0,0,-234,-269,947
373489,09/08/2025 05:31,09/08/2025,05:31:33,GPS,8,3964,69,0,2,56.584469,-6.639016,14,0,0,16,0,0,0,-169,-447,933
373489,09/08/2025 05:51,09/08/2025,05:51:17,GPS,8,3964,69,0,1.8,56.584427,-6.63898,9,0,0,16,0,0,0,-138,516,912
373489,09/08/2025 06:12,09/08/2025,06:12:03,GPS,6,3964,69,0,1.2,56.584469,-6.639003,14,0,0,16,0,0,0,123,363,966
373489,09/08/2025 06:31,09/08/2025,06:31:17,GPS,6,3961,69,0,1.3,56.584454,-6.638921,27,1,344,16,0,0,0,-258,-585,834
373489,09/08/2025 06:51,09/08/2025,06:51:33,GPS,6,3964,69,0,1.7,56.584465,-6.638945,25,0,205,16,0,0,0,-31,251,977
373489,09/08/2025 07:11,09/08/2025,07:11:47,GPS,8,3961,69,0,1.6,56.58445,-6.638962,18,0,0,19,0,0,0,-207,-507,909
373489,09/08/2025 07:31,09/08/2025,07:31:16,GPS,8,3964,69,0,1.6,56.584438,-6.638943,17,0,269,20,0,0,0,-171,-63,1070
373489,09/08/2025 07:51,09/08/2025,07:51:22,GPS,8,3967,70,0,1.7,56.584423,-6.638984,9,1,200,19,0,0,0,-347,-53,1010
373489,09/08/2025 08:11,09/08/2025,08:11:47,GPS,10,3961,69,0,1.4,56.584412,-6.638972,9,0,353,20,0,0,0,34,426,986
373489,09/08/2025 08:31,09/08/2025,08:31:13,GPS,8,3964,69,1,1.7,56.584515,-6.639036,8,0,0,20,0,0,0,-632,-92,1002
373489,09/08/2025 08:51,09/08/2025,08:51:14,GPS,7,3975,71,0,1.8,56.584755,-6.639356,6,0,0,21,0,0,0,-11,355,1038
373489,09/08/2025 09:11,09/08/2025,09:11:33,GPS,8,3975,71,0,1.9,56.584892,-6.639581,16,0,33,18,0,0,0,-316,-13,1076
373489,09/08/2025 09:31,09/08/2025,09:31:20,GPS,8,3973,71,0,1.3,56.584942,-6.639318,11,1,46,22,0,0,0,24,49,1046
373489,09/08/2025 09:51,09/08/2025,09:51:19,GPS,7,3975,71,0,1.1,56.584919,-6.63923,13,0,98,20,0,0,0,-22,225,1000
373489,09/08/2025 10:11,09/08/2025,10:11:19,GPS,5,3975,71,0,1.9,56.584908,-6.639171,18,1,0,18,0,0,0,-70,-321,1052
373489,09/08/2025 10:31,09/08/2025,10:31:51,GPS,6,3973,71,0,1.6,56.584915,-6.639106,20,0,113,19,0,0,0,386,415,891
373489,09/08/2025 10:51,09/08/2025,10:51:25,GPS,5,3975,71,0,1.6,56.584904,-6.639076,21,1,356,21,0,0,0,-267,-511,879
373489,09/08/2025 11:11,09/08/2025,11:11:57,GPS,6,3975,71,0,1.5,56.584927,-6.639067,13,0,0,22,0,0,0,-98,430,957
373489,09/08/2025 11:31,09/08/2025,11:31:19,GPS,6,3975,71,0,1.5,56.584942,-6.639099,2,0,0,23,0,0,0,-223,132,1030
373489,09/08/2025 11:51,09/08/2025,11:51:17,GPS,6,3975,71,0,1.5,56.584949,-6.638958,10,0,86,24,0,0,0,-146,-182,1024
373489,09/08/2025 12:11,09/08/2025,12:11:16,GPS,5,3981,72,0,1.8,56.584995,-6.638948,25,0,0,28,0,0,0,-361,-219,966
373489,09/08/2025 12:31,09/08/2025,12:31:19,GPS,5,3981,72,0,1.5,56.584972,-6.639018,14,3,302,27,0,0,0,-220,-128,1032
373489,09/08/2025 12:52,09/08/2025,12:52:27,GPS,7,3987,73,0,1.7,56.584923,-6.639056,11,0,322,27,0,0,0,-364,132,1028
373489,09/08/2025 13:11,09/08/2025,13:11:51,GPS,6,3987,73,0,1.7,56.584915,-6.639079,12,0,321,24,0,0,0,57,342,935
373489,09/08/2025 13:31,09/08/2025,13:31:16,GPS,5,3987,73,0,1.8,56.584877,-6.639176,25,0,0,25,0,0,0,-212,-11,1044
373489,09/08/2025 13:51,09/08/2025,13:51:17,GPS,6,3984,72,0,1.9,56.5849,-6.639117,16,1,124,22,0,0,0,-180,-15,1042
373489,09/08/2025 14:12,09/08/2025,14:12:05,GPS,7,3992,74,0,1.9,56.584942,-6.639255,9,1,98,27,0,0,0,-265,-167,1016
373489,09/08/2025 14:21,09/08/2025,14:21:18,GPS,7,3987,73,0,1.9,56.58493,-6.639264,12,0,0,26,0,0,0,-252,-54,1030
373489,09/08/2025 14:41,09/08/2025,14:41:17,GPS,6,3990,73,0,2,56.584904,-6.639228,3,1,0,26,0,0,0,-222,144,1024
373489,09/08/2025 15:01,09/08/2025,15:01:51,GPS,5,3995,74,0,1.6,56.584938,-6.639243,13,0,124,26,0,0,0,-219,43,1058
373489,09/08/2025 15:21,09/08/2025,15:21:20,GPS,5,3990,73,0,2,56.584953,-6.639203,25,0,178,21,0,0,0,-264,-157,1008
373489,09/08/2025 15:41,09/08/2025,15:41:57,GPS,6,3990,73,0,1.3,56.584896,-6.639252,12,1,160,25,0,0,0,988,966,105
373489,09/08/2025 16:01,09/08/2025,16:01:18,GPS,4,3987,73,0,2,56.584885,-6.639215,14,1,0,22,0,0,0,-171,-106,1038
373489,09/08/2025 16:22,09/08/2025,16:22:08,GPS,7,3987,73,0,1.3,56.584915,-6.639256,7,0,0,23,0,0,0,-48,-335,999
373489,09/08/2025 16:41,09/08/2025,16:41:17,GPS,6,3981,72,0,1.4,56.584953,-6.639213,19,0,0,22,0,0,0,-371,4,984
373489,09/08/2025 17:01,09/08/2025,17:01:18,GPS,6,3981,72,0,1.6,56.584911,-6.639268,2,0,212,19,0,0,0,-152,64,1029
373489,09/08/2025 17:21,09/08/2025,17:21:17,GPS,6,3981,72,0,1.6,56.584961,-6.639239,12,0,30,20,0,0,0,-219,-154,1020
373489,09/08/2025 17:41,09/08/2025,17:41:33,GPS,6,3981,72,0,1.8,56.58493,-6.639231,10,0,0,21,0,0,0,-115,-108,1050
373489,09/08/2025 18:01,09/08/2025,18:01:33,GPS,8,3978,71,0,1.1,56.584938,-6.639237,10,0,125,21,0,0,0,-97,-222,1026
373489,09/08/2025 18:21,09/08/2025,18:21:15,GPS,8,3975,71,0,1.1,56.584923,-6.639214,4,0,112,20,0,0,0,-171,-144,1035
373489,09/08/2025 18:41,09/08/2025,18:41:17,GPS,6,3975,71,0,2,56.584957,-6.639233,24,0,0,19,0,0,0,-307,-109,1002
373489,09/08/2025 19:01,09/08/2025,19:01:19,GPS,6,3975,71,0,1.6,56.584934,-6.639217,21,0,199,19,0,0,0,-152,-149,1038
373489,09/08/2025 19:21,09/08/2025,19:21:18,GPS,6,3973,71,0,1.3,56.584927,-6.639255,2,1,244,19,0,0,0,-171,-215,1020
373489,09/08/2025 19:41,09/08/2025,19:41:16,GPS,6,3973,71,0,1.2,56.584953,-6.639232,9,0,196,18,0,0,0,-270,-375,933
373489,09/08/2025 20:01,09/08/2025,20:01:18,GPS,4,3970,70,0,2,56.584949,-6.639257,17,0,0,19,0,0,0,-297,-135,1011
373489,09/08/2025 20:21,09/08/2025,20:21:20,GPS,4,3970,70,0,1.6,56.584946,-6.639293,19,2,284,18,0,0,0,-177,-190,1022
373489,09/08/2025 20:41,09/08/2025,20:41:15,GPS,4,3967,70,0,1.6,56.584885,-6.6393,13,0,300,15,0,0,0,-37,-74,1074
373489,09/08/2025 21:01,09/08/2025,21:01:32,GPS,7,3967,70,0,0.9,56.584885,-6.639274,18,0,0,16,0,0,0,-226,-233,1006
373489,09/08/2025 21:21,09/08/2025,21:21:16,GPS,6,3964,69,0,1.5,56.584846,-6.639292,11,0,18,16,0,0,0,-193,-278,994
373489,09/08/2025 21:41,09/08/2025,21:41:24,GPS,6,3964,69,0,1.3,56.573978,-6.614211,27,56,131,15,0,0,0,243,273,507
373489,09/08/2025 22:02,09/08/2025,22:02:37,GPS,4,3961,69,0,5.7,56.4785,-6.350332,-563,55,120,15,0,0,0,-209,-485,2047
373489,09/08/2025 22:21,09/08/2025,22:21:54,GPS,7,3953,67,0,1.7,56.395817,-6.194642,366,16,208,14,0,0,0,105,486,604
373489,09/08/2025 22:41,09/08/2025,22:41:17,GPS,6,3950,67,0,1.4,56.287327,-5.991831,-752,37,151,12,0,0,0,-222,-589,661
373489,09/08/2025 23:01,09/08/2025,23:01:16,GPS,5,3953,67,0,1.9,56.155071,-5.756701,18,53,146,15,0,0,0,-820,-138,1904
373489,09/08/2025 23:21,09/08/2025,23:21:47,GPS,7,3956,68,0,2,56.035122,-5.576919,250,53,139,13,0,0,0,-759,-757,553
373489,09/08/2025 23:41,09/08/2025,23:41:15,GPS,7,3950,67,0,1.8,55.92487,-5.411277,583,67,130,13,0,0,0,-16,-362,153
373489,10/08/2025 00:01,10/08/2025,00:01:14,GPS,6,3950,67,0,1.4,55.814301,-5.217602,317,64,121,14,0,0,0,249,782,1902
373489,10/08/2025 00:21,10/08/2025,00:21:33,GPS,5,3953,67,0,1.3,55.675236,-5.023838,235,56,152,14,0,0,0,-767,-81,355
373489,10/08/2025 00:41,10/08/2025,00:41:47,GPS,6,3947,66,0,1.4,55.540276,-4.880488,212,48,148,14,0,0,0,-405,-213,2047
373489,10/08/2025 01:01,10/08/2025,01:01:23,GPS,5,3944,66,0,1.6,55.428238,-4.683283,281,52,130,13,0,0,0,-644,-267,1880
373489,10/08/2025 01:22,10/08/2025,01:22:33,GPS,8,3944,66,0,1,55.342899,-4.741963,138,0,263,15,0,0,0,-141,189,1024
373489,10/08/2025 01:41,10/08/2025,01:41:18,GPS,8,3936,64,0,1,55.342876,-4.741955,144,0,0,16,0,0,0,-193,-432,945
373489,10/08/2025 02:01,10/08/2025,02:01:17,GPS,8,3938,65,0,1,55.342899,-4.741992,142,0,0,17,0,0,0,-152,-378,848
373489,10/08/2025 02:21,10/08/2025,02:21:15,GPS,7,3938,65,0,1.8,55.305668,-4.831284,80,48,132,15,0,0,0,307,606,606
373489,10/08/2025 02:41,10/08/2025,02:41:16,GPS,7,3938,65,0,1.7,55.293552,-4.82268,39,0,0,18,0,0,0,-323,-99,1006
373489,10/08/2025 03:01,10/08/2025,03:01:33,GPS,7,3938,65,0,1.4,55.293522,-4.822684,38,0,0,19,0,0,0,-128,-106,1042
373489,10/08/2025 03:21,10/08/2025,03:21:14,GPS,6,3936,64,0,1.9,55.293552,-4.822837,37,0,301,21,0,0,0,-255,-99,1022
373489,10/08/2025 03:41,10/08/2025,03:41:33,GPS,9,3938,65,0,1,55.293499,-4.822669,33,0,244,20,0,0,0,-145,-185,1026
373489,10/08/2025 04:01,10/08/2025,04:01:13,GPS,7,3936,64,0,1.2,55.293495,-4.822659,36,0,52,20,0,0,0,-225,-194,1032
373489,10/08/2025 04:21,10/08/2025,04:21:15,GPS,7,3936,64,0,1.1,55.293499,-4.822666,33,0,0,20,0,0,0,-269,-172,1002
373489,10/08/2025 04:41,10/08/2025,04:41:15,GPS,7,3936,64,0,1,55.293507,-4.82264,29,0,0,21,0,0,0,-246,-88,1023
373489,10/08/2025 05:01,10/08/2025,05:01:16,GPS,6,3936,64,0,1.2,55.293533,-4.822649,32,1,270,21,0,0,0,-197,-87,1053
373489,10/08/2025 05:21,10/08/2025,05:21:14,GPS,6,3933,64,0,1.2,55.293518,-4.822647,36,0,106,21,0,0,0,-195,100,1036
373489,10/08/2025 05:41,10/08/2025,05:41:15,GPS,5,3933,64,0,1.2,55.293533,-4.822659,35,0,0,21,0,0,0,-236,-18,1032
373489,10/08/2025 06:01,10/08/2025,06:01:47,GPS,10,3933,64,0,1.2,55.293423,-4.822622,31,0,0,22,0,0,0,-212,-387,957
373489,10/08/2025 06:21,10/08/2025,06:21:13,GPS,10,3930,63,0,1,55.293327,-4.822612,33,0,171,21,0,0,0,-152,-480,923
373489,10/08/2025 06:41,10/08/2025,06:41:14,GPS,10,3930,63,0,0.9,55.293182,-4.822582,31,0,300,22,0,0,0,-242,270,1018
373489,10/08/2025 07:01,10/08/2025,07:01:15,GPS,8,3933,64,0,1.2,55.293102,-4.82257,30,0,0,23,0,0,0,-75,-212,867
373489,10/08/2025 07:21,10/08/2025,07:21:19,GPS,5,3936,64,0,1.4,55.29298,-4.822552,41,0,187,23,0,0,0,-204,-472,924
373489,10/08/2025 07:41,10/08/2025,07:41:15,GPS,5,3938,65,0,1.3,55.292824,-4.822338,36,0,0,23,0,0,0,-88,-405,929
